{
  "resourceType": "Bundle",
  "id": "rtpbc-bundle-request-03",
  "meta": {
    "versionId": "11",
    "lastUpdated": "2019-11-13T15:28:08.000-05:00"
  },
  "type": "collection",
  "entry": [
    {
      "fullUrl": "http://example.org/Claim/rtpbc-claim-03",
      "resource": {
        "resourceType": "Claim",
        "id": "rtpbc-claim-03",
        "text": {
          "status": "generated",
          "div": "<div xmlns=\"http://www.w3.org/1999/xhtml\"><p><b>Generated Narrative with Details</b></p><p><b>id</b>: rtpbc-claim-03</p><p><b>identifier</b>: rtpbc-03</p><p><b>status</b>: active</p><p><b>type</b>: Pharmacy <span style=\"background: LightGoldenRodYellow\">(Details : {http://terminology.hl7.org/CodeSystem/claim-type code 'pharmacy' = 'Pharmacy', given as 'Pharmacy'})</span></p><p><b>use</b>: predetermination</p><p><b>patient</b>: <a href=\"Patient-rtpbc-patient-03.html\">Generated Summary: id: rtpbc-patient-03; Jane Doe ; gender: female; birthDate: 1975-12-05</a></p><p><b>created</b>: Nov 1, 2019 11:20:54 AM</p><p><b>provider</b>: <a href=\"Organization-rtpbc-organization-03.html\">Generated Summary: id: rtpbc-organization-03; 0999017; <span title=\"Codes: {http://ncpdp.org/pharmacy-type R}\">Retail</span>; name: Hometown Drug; ph: 6081234567</a></p><p><b>priority</b>: Normal <span style=\"background: LightGoldenRodYellow\">(Details : {http://terminology.hl7.org/CodeSystem/processpriority code 'normal' = 'Normal', given as 'Normal'})</span></p><p><b>prescription</b>: <a href=\"MedicationRequest-rtpbc-medicationrequest-03.html\">Generated Summary: id: rtpbc-medicationrequest-03; status: draft; intent: proposal; reported; <span title=\"Codes: {http://terminology.hl7.org/CodeSystem/ndc-11 00777310402}\">Prozac 10mg capsule</span></a></p><h3>CareTeams</h3><table class=\"grid\"><tr><td>-</td><td><b>Sequence</b></td><td><b>Provider</b></td></tr><tr><td>*</td><td>1</td><td><a href=\"Practitioner-rtpbc-practitioner-03.html\">Generated Summary: id: rtpbc-practitioner-03; 1234567890; Johnson </a></td></tr></table><h3>Insurances</h3><table class=\"grid\"><tr><td>-</td><td><b>Sequence</b></td><td><b>Focal</b></td><td><b>Coverage</b></td></tr><tr><td>*</td><td>1</td><td>true</td><td><a href=\"Coverage-rtpbc-coverage-03.html\">Generated Summary: id: rtpbc-coverage-03; status: active</a></td></tr></table><h3>Items</h3><table class=\"grid\"><tr><td>-</td><td><b>Sequence</b></td><td><b>CareTeamSequence</b></td><td><b>ProductOrService</b></td><td><b>Quantity</b></td></tr><tr><td>*</td><td>1</td><td>1</td><td>Prozac 10mg capsule <span style=\"background: LightGoldenRodYellow\">(Details : {http://example.org/ndc11/placeholder code '00777310402' = '00777310402', given as 'Prozac 10mg capsule'})</span></td><td>60 EA</td></tr></table></div>"
        },
        "identifier": [
          {
            "value": "rtpbc-03"
          }
        ],
        "status": "active",
        "type": {
          "coding": [
            {
              "system": "http://terminology.hl7.org/CodeSystem/claim-type",
              "code": "pharmacy",
              "display": "Pharmacy"
            }
          ]
        },
        "use": "predetermination",
        "patient": {
          "reference": "Patient/rtpbc-patient-03"
        },
        "created": "2019-11-01T11:20:54-05:00",
        "provider": {
          "reference": "Organization/rtpbc-organization-03"
        },
        "priority": {
          "coding": [
            {
              "system": "http://terminology.hl7.org/CodeSystem/processpriority",
              "code": "normal",
              "display": "Normal"
            }
          ]
        },
        "prescription": {
          "reference": "MedicationRequest/rtpbc-medicationrequest-03"
        },
        "careTeam": [
          {
            "sequence": 1,
            "provider": {
              "reference": "Practitioner/rtpbc-practitioner-03"
            }
          }
        ],
        "insurance": [
          {
            "sequence": 1,
            "focal": true,
            "coverage": {
              "reference": "Coverage/rtpbc-coverage-03"
            }
          }
        ],
        "item": [
          {
            "sequence": 1,
            "careTeamSequence": [
              1
            ],
            "productOrService": {
              "coding": [
                {
                  "system": "http://example.org/ndc11/placeholder",
                  "code": "00777310402",
                  "display": "Prozac 10mg capsule"
                }
              ]
            },
            "quantity": {
              "value": 60,
              "unit": "EA"
            }
          }
        ]
      }
    },
    {
      "fullUrl": "http://example.org/Patient/rtpbc-patient-03",
      "resource": {
        "resourceType": "Patient",
        "id": "rtpbc-patient-03",
        "text": {
          "status": "generated",
          "div": "<div xmlns=\"http://www.w3.org/1999/xhtml\">\n                        <div class=\"hapiHeaderText\">Jane \n                            <b>DOE </b>\n                        </div>\n                        <table class=\"hapiPropertyTable\">\n                            <tbody>\n                                <tr>\n                                    <td>Address</td>\n                                    <td>\n                                        <span>100 Oak Court </span>\n                                        <br/>\n                                        <span>Madison </span>\n                                        <span>WI </span>\n                                        <span>US </span>\n                                    </td>\n                                </tr>\n                                <tr>\n                                    <td>Date of birth</td>\n                                    <td>\n                                        <span>05 December 1975</span>\n                                    </td>\n                                </tr>\n                            </tbody>\n                        </table>\n                    </div>"
        },
        "name": [
          {
            "family": "Doe",
            "given": [
              "Jane"
            ]
          }
        ],
        "gender": "female",
        "birthDate": "1975-12-05",
        "address": [
          {
            "line": [
              "100 Oak Court"
            ],
            "city": "Madison",
            "state": "WI",
            "postalCode": "53510",
            "country": "US"
          }
        ]
      }
    },
    {
      "fullUrl": "http://example.org/Coverage/rtpbc-coverage-03",
      "resource": {
        "resourceType": "Coverage",
        "id": "rtpbc-coverage-03",
        "text": {
          "status": "generated",
          "div": "<div xmlns=\"http://www.w3.org/1999/xhtml\"><p><b>Generated Narrative with Details</b></p><p><b>id</b>: rtpbc-coverage-03</p><p><b>status</b>: active</p><p><b>beneficiary</b>: <a href=\"Patient-rtpbc-patient-03.html\">Generated Summary: id: rtpbc-patient-03; Jane Doe ; gender: female; birthDate: 1975-12-05</a></p><p><b>payor</b>: </p><blockquote><p><b>class</b></p><p><b>type</b>: RX BIN <span style=\"background: LightGoldenRodYellow\">(Details : {http://terminology.hl7.org/CodeSystem/coverage-class code 'rxbin' = 'RX BIN)</span></p><p><b>value</b>: BIN001</p></blockquote><blockquote><p><b>class</b></p><p><b>type</b>: RX PCN <span style=\"background: LightGoldenRodYellow\">(Details : {http://terminology.hl7.org/CodeSystem/coverage-class code 'rxpcn' = 'RX PCN)</span></p><p><b>value</b>: PCN002</p></blockquote><blockquote><p><b>class</b></p><p><b>type</b>: Group <span style=\"background: LightGoldenRodYellow\">(Details : {http://terminology.hl7.org/CodeSystem/coverage-class code 'group' = 'Group)</span></p><p><b>value</b>: GROUP0001</p></blockquote><blockquote><p><b>class</b></p><p><b>type</b>: RX Id <span style=\"background: LightGoldenRodYellow\">(Details : {http://terminology.hl7.org/CodeSystem/coverage-class code 'rxid' = 'RX Id)</span></p><p><b>value</b>: MEMBER000001</p></blockquote></div>"
        },
        "status": "active",
        "beneficiary": {
          "reference": "Patient/rtpbc-patient-03"
        },
        "payor": [
          {
            "identifier": {
              "value": "Pharmacy Plans US"
            }
          }
        ],
        "class": [
          {
            "type": {
              "coding": [
                {
                  "system": "http://terminology.hl7.org/CodeSystem/coverage-class",
                  "code": "rxbin"
                }
              ]
            },
            "value": "BIN001"
          },
          {
            "type": {
              "coding": [
                {
                  "system": "http://terminology.hl7.org/CodeSystem/coverage-class",
                  "code": "rxpcn"
                }
              ]
            },
            "value": "PCN002"
          },
          {
            "type": {
              "coding": [
                {
                  "system": "http://terminology.hl7.org/CodeSystem/coverage-class",
                  "code": "group"
                }
              ]
            },
            "value": "GROUP0001"
          },
          {
            "type": {
              "coding": [
                {
                  "system": "http://terminology.hl7.org/CodeSystem/coverage-class",
                  "code": "rxid"
                }
              ]
            },
            "value": "MEMBER000001"
          }
        ]
      }
    },
    {
      "fullUrl": "http://example.org/MedicationRequest/rtpbc-medicationrequest-03",
      "resource": {
        "resourceType": "MedicationRequest",
        "id": "rtpbc-medicationrequest-03",
        "text": {
          "status": "generated",
          "div": "<div xmlns=\"http://www.w3.org/1999/xhtml\"><p><b>Generated Narrative with Details</b></p><p><b>id</b>: rtpbc-medicationrequest-03</p><p><b>status</b>: draft</p><p><b>intent</b>: proposal</p><p><b>reported</b>: true</p><p><b>medication</b>: Prozac 10mg capsule <span style=\"background: LightGoldenRodYellow\">(Details : {http://example.org/ndc11/placeholder code '00777310402' = '00777310402', given as 'Prozac 10mg capsule'})</span></p><p><b>subject</b>: <a href=\"Patient-rtpbc-patient-03.html\">Generated Summary: id: rtpbc-patient-03; Jane Doe ; gender: female; birthDate: 1975-12-05</a></p><p><b>requester</b>: <a href=\"Practitioner-rtpbc-practitioner-03.html\">Generated Summary: id: rtpbc-practitioner-03; 1234567890; Johnson </a></p><h3>DispenseRequests</h3><table class=\"grid\"><tr><td>-</td><td><b>Quantity</b></td><td><b>ExpectedSupplyDuration</b></td><td><b>Performer</b></td></tr><tr><td>*</td><td>60 EA</td><td>30 days<span style=\"background: LightGoldenRodYellow\"> (Details: UCUM code d = 'd')</span></td><td><a href=\"Organization-rtpbc-organization-03.html\">Generated Summary: id: rtpbc-organization-03; 0999017; <span title=\"Codes: {http://ncpdp.org/pharmacy-type R}\">Retail</span>; name: Hometown Drug; ph: 6081234567</a></td></tr></table></div>"
        },
        "status": "draft",
        "intent": "proposal",
        "reportedBoolean": true,
        "medicationCodeableConcept": {
          "coding": [
            {
              "system": "http://example.org/ndc11/placeholder",
              "code": "00777310402",
              "display": "Prozac 10mg capsule"
            }
          ]
        },
        "subject": {
          "reference": "Patient/rtpbc-patient-03"
        },
        "requester": {
          "reference": "Practitioner/rtpbc-practitioner-03"
        },
        "dispenseRequest": {
          "quantity": {
            "value": 60,
            "unit": "EA"
          },
          "expectedSupplyDuration": {
            "value": 30,
            "unit": "days",
            "system": "http://unitsofmeasure.org",
            "code": "d"
          },
          "performer": {
            "reference": "Organization/rtpbc-organization-03"
          }
        }
      }
    },
    {
      "fullUrl": "http://example.org/Practitioner/rtpbc-practitioner-03",
      "resource": {
        "resourceType": "Practitioner",
        "id": "rtpbc-practitioner-03",
        "text": {
          "status": "generated",
          "div": "<div xmlns=\"http://www.w3.org/1999/xhtml\"><p><b>Generated Narrative with Details</b></p><p><b>id</b>: rtpbc-practitioner-03</p><p><b>identifier</b>: 1234567890</p><p><b>name</b>: Johnson </p></div>"
        },
        "identifier": [
          {
            "system": "http://hl7.org/fhir/sid/us-npi",
            "value": "1234567890"
          }
        ],
        "name": [
          {
            "family": "Johnson"
          }
        ]
      }
    },
    {
      "fullUrl": "http://example.org/Organization/rtpbc-organization-03",
      "resource": {
        "resourceType": "Organization",
        "id": "rtpbc-organization-03",
        "text": {
          "status": "generated",
          "div": "<div xmlns=\"http://www.w3.org/1999/xhtml\"><p><b>Generated Narrative with Details</b></p><p><b>id</b>: rtpbc-organization-03</p><p><b>identifier</b>: 9876543210</p><p><b>name</b>: Hometown Drug</p><p><b>telecom</b>: ph: 6081234567</p><p><b>address</b>: 900 9th Street Madison WI 53535 US </p></div>"
        },
        "identifier": [
          {
            "system": "http://hl7.org/fhir/sid/us-npi",
            "value": "9876543210"
          }
        ],
        "name": "Hometown Drug",
        "telecom": [
          {
            "system": "phone",
            "value": "6081234567"
          }
        ],
        "address": [
          {
            "line": [
              "900 9th Street"
            ],
            "city": "Madison",
            "state": "WI",
            "postalCode": "53535",
            "country": "US"
          }
        ]
      }
    }
  ]
}