{
	"resourceType": "Bundle",
	"id": "rtpbc-bundle-request-03",
	"meta": {
		"versionId": "4",
		"lastUpdated": "2019-11-05T23:37:41.000-05:00"
	},
	"type": "message",
	"entry": [
		{
			"fullUrl": "http://example.org/MessageHeader/rtpbc-messageheader-request-03",
			"resource": {
				"resourceType": "MessageHeader",
				"id": "rtpbc-messageheader-request-03",
				"text": {
					"status": "generated",
					"div": "<div xmlns=\"http://www.w3.org/1999/xhtml\">text</div>"
				},
				"eventCoding": {
					"code": "rtpbc-request"
				},
				"source": {
					"name": "MyPatientApp",
					"endpoint": "http://example.org/MyPatientApp"
				},
				"focus": [
					{
						"reference": "Claim/rtpbc-claim-03"
					}
				]
			}
		},
		{
			"fullUrl": "http://example.org/Claim/rtpbc-claim-03",
			"resource": {
				"resourceType": "Claim",
				"id": "rtpbc-claim-03",
				"text": {
					"status": "generated",
					"div": "<div xmlns=\"http://www.w3.org/1999/xhtml\">text</div>"
				},
				"identifier": [
					{
						"value": "rtpbc-03"
					}
				],
				"status": "active",
				"type": {
					"coding": [
						{
							"system": "http://terminology.hl7.org/CodeSystem/claim-type",
							"code": "pharmacy",
							"display": "Pharmacy"
						}
					]
				},
				"use": "predetermination",
				"patient": {
					"reference": "Patient/rtpbc-patient-03"
				},
				"created": "2019-11-01T11:20:54-05:00",
				"provider": {
					"reference": "Organization/rtpbc-organization-03"
				},
				"priority": {
					"coding": [
						{
							"system": "http://terminology.hl7.org/CodeSystem/processpriority",
							"code": "normal",
							"display": "Normal"
						}
					]
				},
				"prescription": {
					"reference": "MedicationRequest/rtpbc-medicationrequest-03"
				},
				"careTeam": [
					{
						"sequence": 1,
						"provider": {
							"reference": "Practitioner/rtpbc-practitioner-03"
						}
					}
				],
				"insurance": [
					{
						"sequence": 1,
						"focal": true,
						"coverage": {
							"reference": "Coverage/rtpbc-coverage-03"
						}
					}
				],
				"item": [
					{
						"sequence": 1,
						"careTeamSequence": [
							1
						],
						"productOrService": {
							"coding": [
								{
									"system": "http://example.org/ndc11/placeholder",
									"code": "00777310402",
									"display": "Prozac 10mg capsule"
								}
							]
						},
						"quantity": {
							"value": 60,
							"unit": "EA"
						}
					}
				]
			}
		},
		{
			"fullUrl": "http://example.org/Patient/rtpbc-patient-03",
			"resource": {
				"resourceType": "Patient",
				"id": "rtpbc-patient-03",
				"text": {
					"status": "generated",
					"div": "<div xmlns=\"http://www.w3.org/1999/xhtml\"><div class=\"hapiHeaderText\">Jane <b>DOE </b></div><table class=\"hapiPropertyTable\"><tbody><tr><td>Address</td><td><span>100 Oak Court </span><br/><span>Madison </span><span>WI </span><span>US </span></td></tr><tr><td>Date of birth</td><td><span>05 December 1975</span></td></tr></tbody></table></div>"
				},
				"name": [
					{
						"family": "Doe",
						"given": [
							"Jane"
						]
					}
				],
				"gender": "female",
				"birthDate": "1975-12-05",
				"address": [
					{
						"line": [
							"100 Oak Court"
						],
						"city": "Madison",
						"state": "WI",
						"postalCode": "53510",
						"country": "US"
					}
				]
			}
		},
		{
			"fullUrl": "http://example.org/Coverage/rtpbc-coverage-03",
			"resource": {
				"resourceType": "Coverage",
				"id": "rtpbc-coverage-03",
				"status": "active",
				"beneficiary": {
					"reference": "Patient/rtpbc-patient-03"
				},
				"payor": [
					{
						"identifier": {
							"value": "Pharmacy Plans US"
						}
					}
				],
				"class": [
					{
						"type": {
							"coding": [
								{
									"system": "http://terminology.hl7.org/CodeSystem/coverage-class",
									"code": "rxbin"
								}
							]
						},
						"value": "BIN001"
					},
					{
						"type": {
							"coding": [
								{
									"system": "http://terminology.hl7.org/CodeSystem/coverage-class",
									"code": "rxpcn"
								}
							]
						},
						"value": "PCN002"
					},
					{
						"type": {
							"coding": [
								{
									"system": "http://terminology.hl7.org/CodeSystem/coverage-class",
									"code": "group"
								}
							]
						},
						"value": "GROUP0001"
					},
					{
						"type": {
							"coding": [
								{
									"system": "http://terminology.hl7.org/CodeSystem/coverage-class",
									"code": "rxid"
								}
							]
						},
						"value": "MEMBER000001"
					}
				]
			}
		},
		{
			"fullUrl": "http://example.org/MedicationRequest/rtpbc-medicationrequest-03",
			"resource": {
				"resourceType": "MedicationRequest",
				"id": "rtpbc-medicationrequest-03",
				"status": "draft",
				"intent": "proposal",
				"medicationCodeableConcept": {
					"coding": [
						{
							"system": "http://example.org/ndc11/placeholder",
							"code": "00777310402",
							"display": "Prozac 10mg capsule"
						}
					]
				},
				"subject": {
					"reference": "Patient/rtpbc-patient-03"
				},
				"requester": {
					"reference": "Practitioner/rtpbc-practitioner-03"
				},
				"dispenseRequest": {
					"quantity": {
						"value": 60,
						"unit": "EA"
					},
					"expectedSupplyDuration": {
						"value": 30,
						"unit": "days",
						"system": "http://unitsofmeasure.org",
						"code": "d"
					},
					"performer": {
						"reference": "Organization/rtpbc-organization-03"
					}
				}
			}
		},
		{
			"fullUrl": "http://example.org/Practitioner/rtpbc-practitioner-03",
			"resource": {
				"resourceType": "Practitioner",
				"id": "rtpbc-practitioner-03",
				"identifier": [
					{
						"system": "http://hl7.org/fhir/sid/us-npi",
						"value": "1234567890"
					}
				],
				"name": [
					{
						"family": "Johnson"
					}
				]
			}
		},
		{
			"fullUrl": "http://example.org/Organization/rtpbc-organization-03",
			"resource": {
				"resourceType": "Organization",
				"id": "rtpbc-organization-03",
				"identifier": [
					{
						"system": "http://hl7.org/fhir/sid/us-npi",
						"value": "9876543210"
					}
				],
				"name": "Hometown Drug",
				"telecom": [
					{
						"system": "phone",
						"value": "6081234567"
					}
				],
				"address": [
					{
						"line": [
							"900 9th Street"
						],
						"city": "Madison",
						"state": "WI",
						"postalCode": "53535",
						"country": "US"
					}
				]
			}
		}
	]
}