{
	"resourceType": "Bundle",
	"id": "rtpbc-bundle-response-03",
	"meta": {
		"versionId": "3",
		"lastUpdated": "2019-11-06T04:19:41.000-05:00"
	},
	"type": "message",
	"entry": [
		{
			"fullUrl": "http://example.org/MessageHeader/rtpbc-messageheader-response-03",
			"resource": {
				"resourceType": "MessageHeader",
				"id": "rtpbc-messageheader-response-03",
				"text": {
					"status": "generated",
					"div": "<div xmlns=\"http://www.w3.org/1999/xhtml\">text</div>"
				},
				"eventCoding": {
					"code": "rtpbc-response"
				},
				"source": {
					"name": "MyPatientApp",
					"endpoint": "http://example.org/MyPatientApp"
				},
				"focus": [
					{
						"reference": "ClaimResponse/rtpbc-claim-response-03"
					}
				]
			}
		},
		{
			"fullUrl": "http://example.org/ClaimResponse/rtpbc-claim-response-03",
			"resource": {
				"resourceType": "ClaimResponse",
				"id": "rtpbc-claim-response-03",
				"identifier": [
					{
						"value": "rtpbc-03-response"
					}
				],
				"status": "active",
				"type": {
					"coding": [
						{
							"system": "http://terminology.hl7.org/CodeSystem/claim-type",
							"code": "pharmacy",
							"display": "Pharmacy"
						}
					]
				},
				"use": "predetermination",
				"patient": {
					"reference": "Patient/rtpbc-patient-03"
				},
				"created": "2019-11-01T11:20:59-05:00",
				"insurer": {
					"identifier": {
						"value": "Pharmacy Plans US"
					}
				},
				"request": {
					"identifier": {
						"value": "rtpbc-03"
					}
				},
				"outcome": "complete",
				"disposition": "Processed successfully",
				"item": [
					{
						"itemSequence": 1,
						"noteNumber": [
							1
						],
						"adjudication": [
							{
								"category": {
									"coding": [
										{
											"system": "http://hl7.org/fhir/us/carin/CodeSystem/rtpbc-patient-pay-category",
											"code": "copay",
											"display": "Copay"
										}
									]
								},
								"amount": {
									"value": 10,
									"currency": "USD"
								}
							},
							{
								"category": {
									"coding": [
										{
											"system": "http://hl7.org/fhir/us/carin/CodeSystem/rtpbc-patient-pay-category",
											"code": "coinsurance",
											"display": "Per prescription coinsurance"
										}
									]
								},
								"amount": {
									"value": 15,
									"currency": "USD"
								}
							},
							{
								"category": {
									"coding": [
										{
											"system": "http://hl7.org/fhir/us/carin/CodeSystem/rtpbc-patient-pay-category",
											"code": "total",
											"display": "Total patient responsibility"
										}
									]
								},
								"amount": {
									"value": 25,
									"currency": "USD"
								}
							}
						]
					}
				],
				"addItem": [
					{
						"itemSequence": [
							1
						],
						"provider": [
							{
								"reference": "Organization/rtpbc-organization-03m"
							}
						],
						"productOrService": {
							"coding": [
								{
									"system": "http://example.org/ndc11/placeholder",
									"code": "00777310402",
									"display": "Prozac 10mg capsule"
								}
							]
						},
						"quantity": {
							"value": 180,
							"unit": "EA"
						},
						"noteNumber": [
							2
						],
						"adjudication": [
							{
								"category": {
									"coding": [
										{
											"system": "http://hl7.org/fhir/us/carin/CodeSystem/rtpbc-patient-pay-category",
											"code": "copay",
											"display": "Copay"
										}
									]
								},
								"amount": {
									"value": 20,
									"currency": "USD"
								}
							},
							{
								"category": {
									"coding": [
										{
											"system": "http://hl7.org/fhir/us/carin/CodeSystem/rtpbc-patient-pay-category",
											"code": "coinsurance",
											"display": "Per prescription coinsurance"
										}
									]
								},
								"amount": {
									"value": 30,
									"currency": "USD"
								}
							},
							{
								"category": {
									"coding": [
										{
											"system": "http://hl7.org/fhir/us/carin/CodeSystem/rtpbc-patient-pay-category",
											"code": "total",
											"display": "Total patient responsibility"
										}
									]
								},
								"amount": {
									"value": 50,
									"currency": "USD"
								}
							}
						]
					}
				],
				"processNote": [
					{
						"number": 1,
						"text": "Covered"
					},
					{
						"number": 2,
						"text": "Covered"
					}
				]
			}
		},
		{
			"fullUrl": "http://example.org/Patient/rtpbc-patient-03",
			"resource": {
				"resourceType": "Patient",
				"id": "rtpbc-patient-03",
				"text": {
					"status": "generated",
					"div": "<div xmlns=\"http://www.w3.org/1999/xhtml\"><div class=\"hapiHeaderText\">Jane <b>DOE </b></div><table class=\"hapiPropertyTable\"><tbody><tr><td>Address</td><td><span>100 Oak Court </span><br/><span>Madison </span><span>WI </span><span>US </span></td></tr><tr><td>Date of birth</td><td><span>05 December 1975</span></td></tr></tbody></table></div>"
				},
				"name": [
					{
						"family": "Doe",
						"given": [
							"Jane"
						]
					}
				],
				"gender": "female",
				"birthDate": "1975-12-05",
				"address": [
					{
						"line": [
							"100 Oak Court"
						],
						"city": "Madison",
						"state": "WI",
						"postalCode": "53510",
						"country": "US"
					}
				]
			}
		},
		{
			"fullUrl": "http://example.org/Organization/rtpbc-organization-03m",
			"resource": {
				"resourceType": "Organization",
				"id": "rtpbc-organization-03m",
				"identifier": [
					{
						"system": "http://hl7.org/fhir/sid/us-npi",
						"value": "5515515515"
					}
				],
				"name": "My Mail Service Pharmacy",
				"telecom": [
					{
						"system": "phone",
						"value": "5551234567"
					}
				],
				"address": [
					{
						"line": [
							"10001 Oakland Road"
						],
						"city": "Milwaukee",
						"state": "WI",
						"postalCode": "54444",
						"country": "US"
					}
				]
			}
		}
	]
}