<?xml version="1.0" encoding="utf-8"?>
<Bundle xmlns="http://hl7.org/fhir" xmlns:xsi="http://www.w3.org/2001/XMLSchema-instance">
  <id value="rtpbc-bundle-request-03-price-source" />
  <meta>
    <profile value="http://hl7.org/fhir/us/carin/StructureDefinition/rtpbc-request-bundle" />
  </meta>
  <type value="message" />
  <timestamp value="2019-11-15T13:10:13-05:00" />
  <entry>
    <fullUrl value="urn:uuid:61ebe359-bfdc-4613-8bf2-c5e300945f0a" />
    <resource>
      <MessageHeader>
        <id value="rtpbc-messageheader-request-03" />
        <meta>
          <profile value="http://hl7.org/fhir/us/carin/StructureDefinition/rtpbc-request-messageheader" />
        </meta>
        <eventCoding>
          <system value="http://hl7.org/fhir/us/carin/CodeSystem/rtpbc-event-type" />
          <code value="rtpbc-request" />
          <display value="RTPBC Request" />
        </eventCoding>
        <source>
          <name value="MyPatientApp" />
          <endpoint value="http://example.org/MyPatientApp" />
        </source>
        <focus>
          <reference value="urn:uuid:61ebe359-bfdc-4613-8bf2-c5e300945f0b" />
        </focus>
      </MessageHeader>
    </resource>
  </entry>
  <entry>
    <fullUrl value="urn:uuid:61ebe359-bfdc-4613-8bf2-c5e300945f0b" />
    <resource>
      <Claim>
        <id value="rtpbc-claim-03" />
        <meta>
          <profile value="http://hl7.org/fhir/us/carin/StructureDefinition/rtpbc-request-claim" />
        </meta>
        <identifier>
          <value value="rtpbc-03" />
        </identifier>
        <status value="active" />
        <type>
          <coding>
            <system value="http://terminology.hl7.org/CodeSystem/claim-type" />
            <code value="pharmacy" />
            <display value="Pharmacy" />
          </coding>
        </type>
        <use value="predetermination" />
        <patient>
          <reference value="Patient/rtpbc-patient-03" />
        </patient>
        <created value="2019-11-01T11:20:54-05:00" />
        <provider>
          <reference value="Organization/rtpbc-organization-03" />
        </provider>
        <priority>
          <coding>
            <system value="http://terminology.hl7.org/CodeSystem/processpriority" />
            <code value="normal" />
            <display value="Normal" />
          </coding>
        </priority>
        <prescription>
          <reference value="MedicationRequest/rtpbc-medicationrequest-03" />
        </prescription>
        <careTeam>
          <sequence value="1" />
          <provider>
            <reference value="Practitioner/rtpbc-practitioner-03" />
          </provider>
        </careTeam>
        <insurance>
          <sequence value="1" />
          <focal value="true" />
          <coverage>
            <identifier>
              <value value="GOODPRICING" />
            </identifier>
          </coverage>
        </insurance>
        <item>
          <sequence value="1" />
          <careTeamSequence value="1" />
          <productOrService>
            <coding>
              <system value="http://www.nlm.nih.gov/research/umls/rxnorm" />
              <code value="205535" />
              <display value="PROzac 10 MG Oral Capsule" />
            </coding>
          </productOrService>
          <quantity>
            <value value="60" />
            <unit value="{Each}" />
          </quantity>
        </item>
      </Claim>
    </resource>
  </entry>
  <entry>
    <fullUrl value="urn:uuid:61ebe359-bfdc-4613-8bf2-c5e300945f0c" />
    <resource>
      <Patient>
        <id value="rtpbc-patient-03" />
        <meta>
          <profile value="http://hl7.org/fhir/us/carin/StructureDefinition/rtpbc-patient" />
        </meta>
        <identifier>
          <type>
            <coding>
              <system value="http://terminology.hl7.org/CodeSystem/v2-0203" />
              <code value="PI" />
              <display value="Patient internal identifier" />
            </coding>
            <text value="Patient internal identifier" />
          </type>
          <system value="http://example.org/MyPatientApp" />
          <value value="30455" />
        </identifier>
        <name>
          <family value="Doe" />
          <given value="Jane" />
        </name>
        <gender value="female" />
        <birthDate value="1975-12-05" />
        <address>
          <line value="100 Oak Court" />
          <city value="Madison" />
          <state value="WI" />
          <postalCode value="53510" />
          <country value="US" />
        </address>
      </Patient>
    </resource>
  </entry>
  <entry>
    <fullUrl value="urn:uuid:61ebe359-bfdc-4613-8bf2-c5e300945f0e" />
    <resource>
      <MedicationRequest>
        <id value="rtpbc-medicationrequest-03" />
        <meta>
          <profile value="http://hl7.org/fhir/us/carin/StructureDefinition/rtpbc-medicationrequest" />
        </meta>
        <status value="draft" />
        <intent value="proposal" />
        <reportedBoolean value="true" />
        <medicationCodeableConcept>
          <coding>
		      <system value="http://www.nlm.nih.gov/research/umls/rxnorm" />
		      <code value="205535" />
		      <display value="PROzac 10 MG Oral Capsule" />
          </coding>
        </medicationCodeableConcept>
        <subject>
          <reference value="Patient/rtpbc-patient-03" />
        </subject>
        <authoredOn value="2019-11-01" />
        <requester>
          <reference value="Practitioner/rtpbc-practitioner-03" />
        </requester>
        <dispenseRequest>
          <quantity>
            <value value="60" />
            <unit value="{Each}" />
          </quantity>
          <expectedSupplyDuration>
            <value value="30" />
            <unit value="days" />
            <system value="http://unitsofmeasure.org" />
            <code value="d" />
          </expectedSupplyDuration>
          <performer>
            <reference value="Organization/rtpbc-organization-03" />
          </performer>
        </dispenseRequest>
        <substitution>
          <allowedBoolean value="false" />
        </substitution>
      </MedicationRequest>
    </resource>
  </entry>
  <entry>
    <fullUrl value="urn:uuid:61ebe359-bfdc-4613-8bf2-c5e300945f0f" />
    <resource>
      <Practitioner>
        <id value="rtpbc-practitioner-03" />
        <meta>
          <profile value="http://hl7.org/fhir/us/core/StructureDefinition/us-core-practitioner" />
        </meta>
        <identifier>
          <system value="http://hl7.org/fhir/sid/us-npi" />
          <value value="1234567890" />
        </identifier>
        <name>
          <family value="Johnson" />
        </name>
      </Practitioner>
    </resource>
  </entry>
  <entry>
    <fullUrl value="urn:uuid:61ebe359-bfdc-4613-8bf2-c5e300945f0g" />
    <resource>
      <Organization>
        <id value="rtpbc-organization-03" />
        <meta>
          <profile value="http://hl7.org/fhir/us/carin/StructureDefinition/rtpbc-pharmacy-organization" />
        </meta>
        <identifier>
          <system value="http://hl7.org/fhir/sid/us-npi" />
          <value value="9876543210" />
        </identifier>
		<active value="true" />
        <type>
          <coding>
            <system value="http://ncpdp.org/pharmacy-type" />
            <code value="R" />
            <display value="Retail" />
          </coding>
        </type>
        <name value="Hometown Drug" />
        <telecom>
          <system value="phone" />
          <value value="6081234567" />
        </telecom>
        <address>
          <line value="900 9th Street" />
          <city value="Madison" />
          <state value="WI" />
          <postalCode value="53535" />
          <country value="US" />
        </address>
      </Organization>
    </resource>
  </entry>
</Bundle>
