{
	"resourceType": "Claim",
	"id": "rtpbc-claim-with-contained-003",
	"meta": {
		"versionId": "2",
		"lastUpdated": "2019-11-06T01:35:16.000-05:00"
	},
	"contained": [
		{
			"resourceType": "Patient",
			"id": "rtpbc-patient-03",
			"name": [
				{
					"family": "Doe",
					"given": [
						"Jane"
					]
				}
			],
			"gender": "female",
			"birthDate": "1975-12-05",
			"address": [
				{
					"line": [
						"100 Oak Court"
					],
					"city": "Madison",
					"state": "WI",
					"postalCode": "53510",
					"country": "US"
				}
			]
		},
		{
			"resourceType": "Organization",
			"id": "rtpbc-organization-03",
			"identifier": [
				{
					"system": "http://hl7.org/fhir/sid/us-npi",
					"value": "9876543210"
				}
			],
			"name": "Hometown Drug",
			"telecom": [
				{
					"system": "phone",
					"value": "6081234567"
				}
			],
			"address": [
				{
					"line": [
						"900 9th Street"
					],
					"city": "Madison",
					"state": "WI",
					"postalCode": "53535",
					"country": "US"
				}
			]
		},
		{
			"resourceType": "Practitioner",
			"id": "rtpbc-practitioner-03",
			"identifier": [
				{
					"system": "http://hl7.org/fhir/sid/us-npi",
					"value": "1234567890"
				}
			],
			"name": [
				{
					"family": "Johnson"
				}
			]
		},
		{
			"resourceType": "Coverage",
			"id": "rtpbc-coverage-03",
			"status": "active",
			"beneficiary": {
				"reference": "Patient/rtpbc-patient-03"
			},
			"payor": [
				{
					"identifier": {
						"value": "Pharmacy Plans US"
					}
				}
			],
			"class": [
				{
					"type": {
						"coding": [
							{
								"system": "http://terminology.hl7.org/CodeSystem/coverage-class",
								"code": "rxbin"
							}
						]
					},
					"value": "BIN001"
				},
				{
					"type": {
						"coding": [
							{
								"system": "http://terminology.hl7.org/CodeSystem/coverage-class",
								"code": "rxpcn"
							}
						]
					},
					"value": "PCN002"
				},
				{
					"type": {
						"coding": [
							{
								"system": "http://terminology.hl7.org/CodeSystem/coverage-class",
								"code": "group"
							}
						]
					},
					"value": "GROUP0001"
				},
				{
					"type": {
						"coding": [
							{
								"system": "http://terminology.hl7.org/CodeSystem/coverage-class",
								"code": "rxid"
							}
						]
					},
					"value": "MEMBER000001"
				}
			]
		}
	],
	"identifier": [
		{
			"value": "rtpbc-03"
		}
	],
	"status": "active",
	"type": {
		"coding": [
			{
				"system": "http://terminology.hl7.org/CodeSystem/claim-type",
				"code": "pharmacy",
				"display": "Pharmacy"
			}
		]
	},
	"use": "predetermination",
	"patient": {
		"reference": "#rtpbc-patient-03"
	},
	"created": "2019-11-01T11:20:54-05:00",
	"provider": {
		"reference": "#rtpbc-organization-03"
	},
	"priority": {
		"coding": [
			{
				"system": "http://terminology.hl7.org/CodeSystem/processpriority",
				"code": "normal",
				"display": "Normal"
			}
		]
	},
	"prescription": {
		"reference": "MedicationRequest/rtpbc-medicationrequest-03"
	},
	"careTeam": [
		{
			"sequence": 1,
			"provider": {
				"reference": "#rtpbc-practitioner-03"
			}
		}
	],
	"insurance": [
		{
			"sequence": 1,
			"focal": true,
			"coverage": {
				"reference": "#rtpbc-coverage-03"
			}
		}
	],
	"item": [
		{
			"sequence": 1,
			"careTeamSequence": [
				1
			],
			"productOrService": {
				"coding": [
					{
						"system": "http://example.org/ndc11/placeholder",
						"code": "00777310402",
						"display": "Prozac 10mg capsule"
					}
				]
			},
			"quantity": {
				"value": 60,
				"unit": "EA"
			}
		}
	]
}