<?xml version="1.0" encoding="utf-8"?>
<Bundle xmlns="http://hl7.org/fhir" xmlns:xsi="http://www.w3.org/2001/XMLSchema-instance">
  <id value="rtpbc-bundle-response-03-w-header" />
  <meta>
    <profile value="http://hl7.org/fhir/us/carin-rtpbc/StructureDefinition/rtpbc-response-bundle" />
  </meta>
  <type value="message" />
  <timestamp value="2019-11-15T13:10:15-05:00" />
  <entry>
    <fullUrl value="urn:uuid:61ebe359-bfdc-4613-8bf2-c5e300945f0a" />
    <resource>
      <MessageHeader>
        <id value="rtpbc-messageheader-response-03" />
        <meta>
          <profile value="http://hl7.org/fhir/us/carin-rtpbc/StructureDefinition/rtpbc-response-messageheader" />
        </meta>
        <eventCoding>
          <system value="http://hl7.org/fhir/us/carin-rtpbc/CodeSystem/rtpbc-event-type" />
          <code value="rtpbc-response" />
          <display value="RTPBC Response" />
        </eventCoding>
        <source>
          <name value="PharmacyBenefitsCompany" />
          <endpoint value="http://example.org/PharmacyBenefitsCo/fhir" />
        </source>
        <response>
          <identifier value="rtpbc-messageheader-request-03" />
          <code value="ok" />
        </response>
        <focus>
          <reference value="urn:uuid:61ebe359-bfdc-4613-8bf2-c5e3464805f0b" />
        </focus>
        <definition value="http://hl7.org/fhir/us/carin-rtpbc/MessageDefinition/rtpbc-response" />
      </MessageHeader>
    </resource>
  </entry>
  <entry>
    <fullUrl value="urn:uuid:61ebe359-bfdc-4613-8bf2-c5e3464805f0b" />
    <resource>
      <ClaimResponse>
        <id value="rtpbc-claim-response-03" />
        <meta>
          <profile value="http://hl7.org/fhir/us/carin-rtpbc/StructureDefinition/rtpbc-response-claimresponse" />
        </meta>
        <identifier>
          <value value="rtpbc-03-response" />
        </identifier>
        <status value="active" />
        <type>
          <coding>
            <system value="http://terminology.hl7.org/CodeSystem/claim-type" />
            <code value="pharmacy" />
            <display value="Pharmacy" />
          </coding>
        </type>
        <use value="predetermination" />
        <patient>
          <reference value="Patient/rtpbc-patient-03" />
        </patient>
        <created value="2019-11-01T11:20:59-05:00" />
        <insurer>
          <identifier>
            <value value="Pharmacy Plans US" />
          </identifier>
        </insurer>
        <request>
          <identifier>
            <value value="rtpbc-03" />
          </identifier>
        </request>
        <outcome value="complete" />
        <disposition value="Processed successfully" />
        <item>
          <extension url="http://hl7.org/fhir/us/carin-rtpbc/StructureDefinition/rtpbc-benefitRestriction">
            <valueCoding>
              <system value="http://hl7.org/fhir/us/carin-rtpbc/CodeSystem/rtpbc-benefit-restriction" />
              <code value="prior-auth" />
              <display value="Prior authorization required" />
            </valueCoding>
          </extension>
          <itemSequence value="1" />
          <adjudication>
            <category>
              <coding>
                <system value="http://hl7.org/fhir/us/carin-rtpbc/CodeSystem/rtpbc-patient-pay-type" />
                <code value="copay" />
                <display value="Copay" />
              </coding>
            </category>
            <amount>
              <value value="40" />
              <currency value="USD" />
            </amount>
          </adjudication>
          <adjudication>
            <category>
              <coding>
                <system value="http://hl7.org/fhir/us/carin-rtpbc/CodeSystem/rtpbc-patient-pay-type" />
                <code value="coinsurance" />
                <display value="Per prescription coinsurance" />
              </coding>
            </category>
            <amount>
              <value value="30" />
              <currency value="USD" />
            </amount>
          </adjudication>
          <adjudication>
            <category>
              <coding>
                <system value="http://hl7.org/fhir/us/carin-rtpbc/CodeSystem/rtpbc-patient-pay-type" />
                <code value="total" />
                <display value="Total patient responsibility" />
              </coding>
            </category>
            <amount>
              <value value="70" />
              <currency value="USD" />
            </amount>
          </adjudication>
        </item>
        <addItem>
          <extension url="http://hl7.org/fhir/us/carin-rtpbc/StructureDefinition/rtpbc-isAlternative">
            <valueBoolean value="true" />
          </extension>
          <extension url="http://hl7.org/fhir/us/carin-rtpbc/StructureDefinition/rtpbc-benefitRestriction">
            <valueCoding>
              <system value="http://hl7.org/fhir/us/carin-rtpbc/CodeSystem/rtpbc-benefit-restriction" />
              <code value="covered" />
              <display value="Covered" />
            </valueCoding>
          </extension>
          <itemSequence value="1" />
          <provider>
            <reference value="Organization/rtpbc-organization-03m" />
          </provider>
          <productOrService>
            <coding>
              <system value="http://www.nlm.nih.gov/research/umls/rxnorm" />
              <code value="205535" />
              <display value="PROzac 10 MG Oral Capsule" />
            </coding>
          </productOrService>
          <quantity>
            <value value="180" />
            <unit value="{Each}" />
          </quantity>
          <adjudication>
            <category>
              <coding>
                <system value="http://hl7.org/fhir/us/carin-rtpbc/CodeSystem/rtpbc-patient-pay-type" />
                <code value="copay" />
                <display value="Copay" />
              </coding>
            </category>
            <amount>
              <value value="20" />
              <currency value="USD" />
            </amount>
          </adjudication>
          <adjudication>
            <category>
              <coding>
                <system value="http://hl7.org/fhir/us/carin-rtpbc/CodeSystem/rtpbc-patient-pay-type" />
                <code value="coinsurance" />
                <display value="Per prescription coinsurance" />
              </coding>
            </category>
            <amount>
              <value value="30" />
              <currency value="USD" />
            </amount>
          </adjudication>
          <adjudication>
            <category>
              <coding>
                <system value="http://hl7.org/fhir/us/carin-rtpbc/CodeSystem/rtpbc-patient-pay-type" />
                <code value="total" />
                <display value="Total patient responsibility" />
              </coding>
            </category>
            <amount>
              <value value="50" />
              <currency value="USD" />
            </amount>
          </adjudication>
        </addItem>
      </ClaimResponse>
    </resource>
  </entry>
  <entry>
    <fullUrl value="urn:uuid:61ebe359-bfdc-4613-8bf2-c5e300945f0c" />
    <resource>
      <Patient>
        <id value="rtpbc-patient-03" />
        <meta>
          <profile value="http://hl7.org/fhir/us/carin-rtpbc/StructureDefinition/rtpbc-patient" />
        </meta>
        <identifier>
          <type>
            <coding>
              <system value="http://terminology.hl7.org/CodeSystem/v2-0203" />
              <code value="PI" />
              <display value="Patient internal identifier" />
            </coding>
            <text value="Patient internal identifier" />
          </type>
          <system value="http://example.org/MyPatientApp" />
          <value value="30455" />
        </identifier>
        <name>
          <family value="Doe" />
          <given value="Jane" />
        </name>
        <gender value="female" />
        <birthDate value="1975-12-05" />
        <address>
          <line value="100 Oak Court" />
          <city value="Madison" />
          <state value="WI" />
          <postalCode value="53510" />
          <country value="US" />
        </address>
      </Patient>
    </resource>
  </entry>
  <entry>
    <fullUrl value="urn:uuid:61ebe359-bfdc-4613-8bf2-c5e300945f0d" />
    <resource>
      <Organization>
        <id value="rtpbc-organization-03m" />
        <meta>
          <profile value="http://hl7.org/fhir/us/carin-rtpbc/StructureDefinition/rtpbc-pharmacy-organization" />
        </meta>
        <identifier>
          <system value="http://hl7.org/fhir/sid/us-npi" />
          <value value="5515515515" />
        </identifier>
        <active value="true" />
        <type>
          <coding>
            <system value="http://terminology.hl7.org/CodeSystem/NCPDPPharmacyType" />
            <code value="M" />
            <display value="Mail Order" />
          </coding>
        </type>
        <name value="My Mail Service Pharmacy" />
        <telecom>
          <system value="phone" />
          <value value="5551234567" />
        </telecom>
        <address>
          <line value="10001 Oakland Road" />
          <city value="Milwaukee" />
          <state value="WI" />
          <postalCode value="54444" />
          <country value="US" />
        </address>
      </Organization>
    </resource>
  </entry>
</Bundle>
