<?xml version="1.0" encoding="UTF-8"?>
<ClaimResponse
    xmlns="http://hl7.org/fhir">
    <id value="rtpbc-claim-response-with-contained-03"/>
    <meta>
        <versionId value="2"/>
        <lastUpdated value="2019-11-06T17:42:34.000-05:00"/>
    </meta>
    <contained>
        <Patient>
            <id value="rtpbc-patient-03"/>
            <name>
                <family value="Doe"/>
                <given value="Jane"/>
            </name>
            <gender value="female"/>
            <birthDate value="1975-12-05"/>
            <address>
                <line value="100 Oak Court"/>
                <city value="Madison"/>
                <state value="WI"/>
                <postalCode value="53510"/>
                <country value="US"/>
            </address>
        </Patient>
    </contained>
    <contained>
        <Organization>
            <id value="rtpbc-organization-03m"/>
            <identifier>
                <system value="http://hl7.org/fhir/sid/us-npi"/>
                <value value="5515515515"/>
            </identifier>
            <name value="My Mail Service Pharmacy"/>
            <telecom>
                <system value="phone"/>
                <value value="5551234567"/>
            </telecom>
            <address>
                <line value="10001 Oakland Road"/>
                <city value="Milwaukee"/>
                <state value="WI"/>
                <postalCode value="54444"/>
                <country value="US"/>
            </address>
        </Organization>
    </contained>
    <identifier>
        <value value="rtpbc-03-response"/>
    </identifier>
    <status value="active"/>
    <type>
        <coding>
            <system value="http://terminology.hl7.org/CodeSystem/claim-type"/>
            <code value="pharmacy"/>
            <display value="Pharmacy"/>
        </coding>
    </type>
    <use value="predetermination"/>
    <patient>
        <reference value="#rtpbc-patient-03"/>
    </patient>
    <created value="2019-11-01T11:20:59-05:00"/>
    <insurer>
        <identifier>
            <value value="Pharmacy Plans US"/>
        </identifier>
    </insurer>
    <request>
        <identifier>
            <value value="rtpbc-03"/>
        </identifier>
    </request>
    <outcome value="complete"/>
    <disposition value="Processed successfully"/>
    <item>
        <itemSequence value="1"/>
        <noteNumber value="1"/>
        <adjudication>
            <category>
                <coding>
                    <system value="http://hl7.org/fhir/us/carin/CodeSystem/rtpbc-patient-pay-type"/>
                    <code value="copay"/>
                    <display value="Copay"/>
                </coding>
            </category>
            <amount>
                <value value="10"/>
                <currency value="USD"/>
            </amount>
        </adjudication>
        <adjudication>
            <category>
                <coding>
                    <system value="http://hl7.org/fhir/us/carin/CodeSystem/rtpbc-patient-pay-type"/>
                    <code value="coinsurance"/>
                    <display value="Per prescription coinsurance"/>
                </coding>
            </category>
            <amount>
                <value value="15"/>
                <currency value="USD"/>
            </amount>
        </adjudication>
        <adjudication>
            <category>
                <coding>
                    <system value="http://hl7.org/fhir/us/carin/CodeSystem/rtpbc-patient-pay-type"/>
                    <code value="total"/>
                    <display value="Total patient responsibility"/>
                </coding>
            </category>
            <amount>
                <value value="25"/>
                <currency value="USD"/>
            </amount>
        </adjudication>
    </item>
    <addItem>
        <itemSequence value="1"/>
        <provider>
            <reference value="#rtpbc-organization-03m"/>
        </provider>
        <productOrService>
            <coding>
                <system value="http://example.org/ndc11/placeholder"/>
                <code value="00777310402"/>
                <display value="Prozac 10mg capsule"/>
            </coding>
        </productOrService>
        <quantity>
            <value value="180"/>
            <unit value="EA"/>
        </quantity>
        <noteNumber value="2"/>
        <adjudication>
            <category>
                <coding>
                    <system value="http://hl7.org/fhir/us/carin/CodeSystem/rtpbc-patient-pay-type"/>
                    <code value="copay"/>
                    <display value="Copay"/>
                </coding>
            </category>
            <amount>
                <value value="20"/>
                <currency value="USD"/>
            </amount>
        </adjudication>
        <adjudication>
            <category>
                <coding>
                    <system value="http://hl7.org/fhir/us/carin/CodeSystem/rtpbc-patient-pay-type"/>
                    <code value="coinsurance"/>
                    <display value="Per prescription coinsurance"/>
                </coding>
            </category>
            <amount>
                <value value="30"/>
                <currency value="USD"/>
            </amount>
        </adjudication>
        <adjudication>
            <category>
                <coding>
                    <system value="http://hl7.org/fhir/us/carin/CodeSystem/rtpbc-patient-pay-type"/>
                    <code value="total"/>
                    <display value="Total patient responsibility"/>
                </coding>
            </category>
            <amount>
                <value value="50"/>
                <currency value="USD"/>
            </amount>
        </adjudication>
    </addItem>
    <processNote>
        <number value="1"/>
        <text value="Covered"/>
    </processNote>
    <processNote>
        <number value="2"/>
        <text value="Covered"/>
    </processNote>
</ClaimResponse>